Focus Mode,Read Mode,Exposure Time (sec),Number of Frames,Start Y,End Y,Date,Time,Position (microns)
Single Acquisition,Spectrum,20.000000,3,105,125,12/11/2020,3:50:40 PM,0.000000,0.000000,120.000000,

1244.000,1251.000,1249.000
1246.000,1249.000,1252.000
1244.000,1248.000,1242.000
1243.000,1243.000,1251.000
1246.000,1246.000,1246.000
1246.000,1252.000,1243.000
1249.000,1250.000,1251.000
1246.000,1256.000,1255.000
1245.000,1256.000,1245.000
1255.000,1252.000,1253.000
1250.000,1247.000,1255.000
1250.000,1252.000,1251.000
1256.000,1249.000,1257.000
1252.000,1251.000,1254.000
1258.000,1256.000,1256.000
1255.000,1256.000,1254.000
1260.000,1261.000,1259.000
1267.000,1255.000,1266.000
1266.000,1260.000,1261.000
1267.000,1265.000,1270.000
1268.000,1261.000,1262.000
1266.000,1265.000,1263.000
1271.000,1263.000,1269.000
1267.000,1270.000,1267.000
1273.000,1275.000,1276.000
1266.000,1275.000,1271.000
1270.000,1274.000,1271.000
1273.000,1272.000,1278.000
1284.000,1276.000,1278.000
1279.000,1274.000,1278.000
1274.000,1283.000,1284.000
1274.000,1284.000,1284.000
1283.000,1275.000,1282.000
1280.000,1281.000,1294.000
1296.000,1291.000,1289.000
1294.000,1287.000,1289.000
1294.000,1297.000,1296.000
1296.000,1303.000,1291.000
1299.000,1300.000,1295.000
1296.000,1304.000,1293.000
1302.000,1299.000,1305.000
1301.000,1298.000,1305.000
1314.000,1313.000,1299.000
1300.000,1315.000,1319.000
1312.000,1318.000,1318.000
1318.000,1331.000,1313.000
1325.000,1320.000,1322.000
1315.000,1313.000,1315.000
1329.000,1326.000,1328.000
1326.000,1333.000,1337.000
1341.000,1346.000,1337.000
1349.000,1352.000,1344.000
1349.000,1345.000,1360.000
1354.000,1341.000,1347.000
1361.000,1353.000,1346.000
1367.000,1368.000,1355.000
1370.000,1360.000,1367.000
1364.000,1366.000,1362.000
1380.000,1381.000,1383.000
1395.000,1385.000,1370.000
1398.000,1388.000,1387.000
1402.000,1387.000,1391.000
1394.000,1403.000,1388.000
1392.000,1410.000,1408.000
1398.000,1400.000,1401.000
1412.000,1418.000,1422.000
1429.000,1419.000,1427.000
1423.000,1427.000,1428.000
1421.000,1443.000,1441.000
1451.000,1450.000,1436.000
1455.000,1451.000,1456.000
1455.000,1459.000,1459.000
1498.000,1465.000,1463.000
1476.000,1465.000,1479.000
1490.000,1486.000,1487.000
1505.000,1511.000,1497.000
1546.000,1540.000,1532.000
1535.000,1514.000,1533.000
1546.000,1550.000,1546.000
1564.000,1581.000,1556.000
1592.000,1575.000,1588.000
1590.000,1578.000,1593.000
1604.000,1587.000,1580.000
1616.000,1633.000,1609.000
1659.000,1651.000,1616.000
1653.000,1637.000,1604.000
1665.000,1655.000,1669.000
1665.000,1649.000,1654.000
1691.000,1689.000,1668.000
1695.000,1676.000,1697.000
1722.000,1715.000,1706.000
1745.000,1718.000,1744.000
1768.000,1759.000,1739.000
1799.000,1752.000,1769.000
1826.000,1781.000,1823.000
1836.000,1812.000,1826.000
1883.000,1923.000,1912.000
1947.000,1919.000,1905.000
2003.000,1956.000,1986.000
2073.000,2047.000,2082.000
2168.000,2151.000,2113.000
2215.000,2230.000,2244.000
2377.000,2334.000,2330.000
2444.000,2417.000,2436.000
2506.000,2490.000,2486.000
2571.000,2535.000,2521.000
2633.000,2590.000,2569.000
2619.000,2573.000,2615.000
2696.000,2638.000,2620.000
2705.000,2636.000,2675.000
2703.000,2678.000,2656.000
2716.000,2699.000,2681.000
2750.000,2687.000,2715.000
2738.000,2735.000,2738.000
2764.000,2775.000,2736.000
2859.000,2845.000,2821.000
2917.000,2871.000,2905.000
3133.000,3083.000,3087.000
3252.000,3236.000,3212.000
3539.000,3532.000,3525.000
4071.000,4024.000,4102.000
5024.000,5089.000,5131.000
7274.000,7488.000,7590.000
14207.000,14738.000,15174.000
62154.000,42945.000,39467.000
61239.000,61475.000,61408.000
61931.000,62026.000,62024.000
61901.000,61957.000,61955.000
61919.000,61930.000,61923.000
61916.000,61923.000,61922.000
61886.000,61904.000,61899.000
61883.000,61891.000,61894.000
61895.000,61897.000,61892.000
61886.000,61891.000,61893.000
61877.000,61882.000,61887.000
61885.000,61884.000,61882.000
61881.000,61889.000,61886.000
61877.000,61886.000,61885.000
61879.000,61880.000,61883.000
61879.000,61886.000,61884.000
61876.000,61883.000,61880.000
61880.000,61883.000,61878.000
61877.000,61886.000,61880.000
61877.000,61881.000,61880.000
61874.000,61880.000,61878.000
61877.000,61879.000,61880.000
61876.000,61880.000,61880.000
61876.000,61878.000,61878.000
61876.000,61875.000,61873.000
61870.000,61880.000,61877.000
61874.000,61875.000,61885.000
61876.000,61883.000,61877.000
61878.000,61877.000,61880.000
61873.000,61884.000,61878.000
61872.000,61879.000,61876.000
61876.000,61883.000,61877.000
61871.000,61879.000,61878.000
61872.000,61882.000,61875.000
61874.000,61877.000,61877.000
61878.000,61878.000,61880.000
61875.000,61872.000,61883.000
61878.000,61885.000,61870.000
61878.000,61878.000,61878.000
61876.000,61884.000,61881.000
61880.000,61876.000,61879.000
61867.000,61886.000,61884.000
61880.000,61883.000,61883.000
61874.000,61877.000,61877.000
61869.000,61885.000,61879.000
61879.000,61882.000,61880.000
61879.000,61882.000,61878.000
61874.000,61881.000,61878.000
61877.000,61879.000,61881.000
61883.000,61884.000,61883.000
61882.000,61904.000,61917.000
61898.000,61928.000,61944.000
61929.000,61468.000,9365.000
50770.000,1662.000,1587.000
1632.000,1563.000,1564.000
1550.000,1536.000,1556.000
1548.000,1533.000,1521.000
1516.000,1506.000,1500.000
1507.000,1504.000,1498.000
1515.000,1491.000,1477.000
1488.000,1496.000,1476.000
1478.000,1482.000,1466.000
1463.000,1458.000,1469.000
1473.000,1460.000,1440.000
1464.000,1442.000,1442.000
1452.000,1435.000,1429.000
1452.000,1426.000,1417.000
1428.000,1432.000,1412.000
1426.000,1405.000,1423.000
1418.000,1417.000,1422.000
1416.000,1427.000,1418.000
1422.000,1409.000,1397.000
1404.000,1392.000,1401.000
1407.000,1400.000,1402.000
1406.000,1410.000,1396.000
1393.000,1393.000,1404.000
1397.000,1393.000,1393.000
1400.000,1382.000,1380.000
1389.000,1378.000,1385.000
1402.000,1380.000,1379.000
1391.000,1385.000,1385.000
1371.000,1398.000,1381.000
1390.000,1380.000,1384.000
1374.000,1379.000,1379.000
1370.000,1363.000,1378.000
1369.000,1369.000,1372.000
1374.000,1373.000,1350.000
1369.000,1374.000,1379.000
1379.000,1365.000,1370.000
1363.000,1355.000,1352.000
1351.000,1356.000,1342.000
1349.000,1357.000,1358.000
1362.000,1341.000,1352.000
1352.000,1343.000,1346.000
1346.000,1349.000,1336.000
1352.000,1347.000,1345.000
1346.000,1346.000,1339.000
1348.000,1340.000,1335.000
1355.000,1345.000,1343.000
1340.000,1336.000,1336.000
1335.000,1324.000,1339.000
1334.000,1323.000,1343.000
1329.000,1343.000,1337.000
1324.000,1319.000,1338.000
1337.000,1322.000,1326.000
1326.000,1329.000,1323.000
1320.000,1324.000,1319.000
1318.000,1328.000,1326.000
1333.000,1332.000,1320.000
1332.000,1324.000,1318.000
1329.000,1319.000,1323.000
1329.000,1316.000,1309.000
1324.000,1323.000,1317.000
1310.000,1324.000,1310.000
1316.000,1323.000,1322.000
1317.000,1314.000,1315.000
1314.000,1316.000,1323.000
1310.000,1316.000,1320.000
1313.000,1305.000,1306.000
1308.000,1316.000,1323.000
1303.000,1309.000,1308.000
1308.000,1305.000,1313.000
1302.000,1300.000,1299.000
1308.000,1299.000,1309.000
1318.000,1297.000,1301.000
1295.000,1307.000,1307.000
1308.000,1302.000,1303.000
1317.000,1304.000,1310.000
1304.000,1296.000,1308.000
1306.000,1295.000,1307.000
1309.000,1299.000,1295.000
1295.000,1295.000,1295.000
1301.000,1289.000,1293.000
1303.000,1298.000,1297.000
1290.000,1297.000,1293.000
1288.000,1293.000,1303.000
1302.000,1304.000,1288.000
1293.000,1295.000,1307.000
1296.000,1299.000,1291.000
1299.000,1295.000,1290.000
1296.000,1287.000,1294.000
1295.000,1296.000,1293.000
1289.000,1285.000,1287.000
1289.000,1284.000,1291.000
1294.000,1291.000,1285.000
1293.000,1283.000,1295.000
1298.000,1278.000,1288.000
1300.000,1286.000,1291.000
1295.000,1295.000,1292.000
1287.000,1285.000,1285.000
1287.000,1290.000,1292.000
1289.000,1279.000,1283.000
1285.000,1287.000,1277.000
1285.000,1283.000,1294.000
1286.000,1276.000,1283.000
1285.000,1289.000,1282.000
1282.000,1280.000,1281.000
1296.000,1289.000,1277.000
1284.000,1292.000,1279.000
1291.000,1288.000,1284.000
1288.000,1281.000,1285.000
1296.000,1280.000,1285.000
1287.000,1288.000,1291.000
1293.000,1291.000,1288.000
1292.000,1292.000,1293.000
1296.000,1295.000,1289.000
1299.000,1299.000,1290.000
1283.000,1295.000,1292.000
1308.000,1295.000,1295.000
1300.000,1299.000,1288.000
1293.000,1306.000,1297.000
1310.000,1302.000,1317.000
1324.000,1308.000,1310.000
1318.000,1324.000,1311.000
1309.000,1328.000,1324.000
1330.000,1326.000,1328.000
1332.000,1350.000,1345.000
1353.000,1354.000,1351.000
1367.000,1362.000,1364.000
1381.000,1379.000,1384.000
1393.000,1415.000,1387.000
1417.000,1427.000,1415.000
1455.000,1451.000,1432.000
1495.000,1490.000,1478.000
1527.000,1511.000,1522.000
1569.000,1549.000,1572.000
1602.000,1628.000,1592.000
1706.000,1685.000,1649.000
1747.000,1749.000,1774.000
1831.000,1847.000,1821.000
1920.000,1937.000,1900.000
2040.000,2031.000,2011.000
2143.000,2097.000,2117.000
2229.000,2285.000,2219.000
2384.000,2342.000,2364.000
2479.000,2465.000,2457.000
2607.000,2595.000,2579.000
2723.000,2726.000,2698.000
2826.000,2800.000,2823.000
2968.000,2964.000,2938.000
3089.000,3053.000,2974.000
3159.000,3115.000,3081.000
3233.000,3189.000,3193.000
3263.000,3236.000,3206.000
3348.000,3288.000,3273.000
3391.000,3331.000,3328.000
3345.000,3357.000,3331.000
3424.000,3447.000,3306.000
3447.000,3377.000,3414.000
3414.000,3409.000,3386.000
3431.000,3370.000,3370.000
3460.000,3405.000,3407.000
3431.000,3442.000,3368.000
3444.000,3417.000,3384.000
3381.000,3437.000,3385.000
3452.000,3414.000,3386.000
3464.000,3406.000,3350.000
3455.000,3458.000,3311.000
3442.000,3453.000,3396.000
3468.000,3420.000,3420.000
3459.000,3402.000,3451.000
3497.000,3447.000,3459.000
3482.000,3504.000,3439.000
3492.000,3495.000,3448.000
3509.000,3509.000,3467.000
3470.000,3479.000,3485.000
3489.000,3483.000,3382.000
3449.000,3403.000,3500.000
3492.000,3493.000,3475.000
3486.000,3460.000,3440.000
3510.000,3497.000,3432.000
3497.000,3450.000,3425.000
3495.000,3457.000,3418.000
3536.000,3485.000,3451.000
3499.000,3530.000,3439.000
3491.000,3449.000,3459.000
3455.000,3472.000,3410.000
3519.000,3505.000,3424.000
3530.000,3507.000,3491.000
3531.000,3500.000,3457.000
3519.000,3490.000,3476.000
3518.000,3488.000,3499.000
3480.000,3549.000,3474.000
3532.000,3500.000,3443.000
3511.000,3447.000,3491.000
3522.000,3500.000,3495.000
3563.000,3491.000,3454.000
3541.000,3512.000,3483.000
3566.000,3514.000,3435.000
3506.000,3531.000,3536.000
3520.000,3498.000,3495.000
3554.000,3526.000,3440.000
3571.000,3501.000,3528.000
3539.000,3533.000,3530.000
3608.000,3530.000,3423.000
3562.000,3509.000,3487.000
3668.000,3576.000,3556.000
3587.000,3536.000,3552.000
3621.000,3563.000,3596.000
3596.000,3670.000,3497.000
3617.000,3554.000,3542.000
3642.000,3609.000,3593.000
3631.000,3610.000,3554.000
3604.000,3589.000,3580.000
3615.000,3600.000,3547.000
3615.000,3586.000,3560.000
3655.000,3573.000,3563.000
3600.000,3610.000,3557.000
3667.000,3564.000,3532.000
3660.000,3660.000,3600.000
3643.000,3639.000,3589.000
3665.000,3674.000,3652.000
3704.000,3694.000,3593.000
3765.000,3654.000,3600.000
3697.000,3649.000,3612.000
3679.000,3634.000,3660.000
3635.000,3654.000,3675.000
3661.000,3710.000,3684.000
3651.000,3605.000,3608.000
3693.000,3651.000,3584.000
3670.000,3641.000,3627.000
3680.000,3621.000,3569.000
3683.000,3618.000,3594.000
3649.000,3625.000,3595.000
3659.000,3597.000,3602.000
3654.000,3582.000,3610.000
3657.000,3659.000,3645.000
3656.000,3687.000,3655.000
3656.000,3620.000,3622.000
3627.000,3640.000,3609.000
3631.000,3619.000,3550.000
3678.000,3719.000,3593.000
3636.000,3594.000,3635.000
3722.000,3676.000,3593.000
3662.000,3615.000,3576.000
3670.000,3620.000,3627.000
3680.000,3651.000,3610.000
3714.000,3639.000,3581.000
3684.000,3661.000,3598.000
3665.000,3617.000,3613.000
3663.000,3681.000,3635.000
3614.000,3672.000,3649.000
3691.000,3675.000,3654.000
3704.000,3650.000,3622.000
3671.000,3684.000,3631.000
3735.000,3660.000,3651.000
3683.000,3645.000,3616.000
3737.000,3674.000,3671.000
3704.000,3670.000,3692.000
3773.000,3706.000,3643.000
3684.000,3692.000,3630.000
3679.000,3698.000,3702.000
3774.000,3754.000,3670.000
3717.000,3697.000,3679.000
3769.000,3739.000,3695.000
3725.000,3706.000,3691.000
3743.000,3691.000,3726.000
3721.000,3740.000,3658.000
3716.000,3725.000,3677.000
3732.000,3725.000,3671.000
3753.000,3723.000,3726.000
3716.000,3732.000,3687.000
3784.000,3731.000,3739.000
3741.000,3751.000,3721.000
3762.000,3722.000,3667.000
3782.000,3764.000,3672.000
3742.000,3778.000,3701.000
3780.000,3768.000,3670.000
3746.000,3715.000,3705.000
3696.000,3735.000,3753.000
3734.000,3719.000,3704.000
3802.000,3719.000,3631.000
3817.000,3735.000,3770.000
3756.000,3688.000,3711.000
3721.000,3746.000,3683.000
3788.000,3769.000,3708.000
3772.000,3761.000,3679.000
3732.000,3754.000,3714.000
3749.000,3698.000,3722.000
3735.000,3748.000,3693.000
3728.000,3715.000,3702.000
3752.000,3701.000,3722.000
3773.000,3725.000,3717.000
3800.000,3729.000,3714.000
3797.000,3792.000,3707.000
3756.000,3740.000,3677.000
3791.000,3737.000,3693.000
3793.000,3753.000,3710.000
3771.000,3744.000,3715.000
3769.000,3787.000,3803.000
3790.000,3711.000,3725.000
3806.000,3719.000,3712.000
3804.000,3804.000,3721.000
3804.000,3776.000,3703.000
3840.000,3755.000,3747.000
3857.000,3783.000,3734.000
3803.000,3780.000,3775.000
3773.000,3775.000,3717.000
3792.000,3750.000,3792.000
3777.000,3727.000,3691.000
3820.000,3753.000,3767.000
3795.000,3815.000,3794.000
3850.000,3786.000,3770.000
3834.000,3819.000,3741.000
3775.000,3768.000,3759.000
3795.000,3793.000,3760.000
3819.000,3807.000,3783.000
3812.000,3737.000,3729.000
3766.000,3804.000,3704.000
3795.000,3723.000,3829.000
3855.000,3829.000,3793.000
3826.000,3791.000,3816.000
3794.000,3822.000,3771.000
3825.000,3768.000,3761.000
3839.000,3792.000,3828.000
3822.000,3827.000,3793.000
3868.000,3844.000,3759.000
3849.000,3869.000,3751.000
3826.000,3850.000,3814.000
3874.000,3802.000,3798.000
3819.000,3866.000,3780.000
3899.000,3798.000,3825.000
3869.000,3814.000,3779.000
3817.000,3800.000,3782.000
3814.000,3746.000,3823.000
3825.000,3812.000,3824.000
3825.000,3795.000,3793.000
3878.000,3801.000,3777.000
3872.000,3765.000,3782.000
3885.000,3830.000,3831.000
3827.000,3755.000,3698.000
3818.000,3798.000,3754.000
3811.000,3775.000,3792.000
3808.000,3838.000,3755.000
3878.000,3775.000,3734.000
3813.000,3783.000,3695.000
3885.000,3810.000,3777.000
3808.000,3715.000,3730.000
3833.000,3788.000,3774.000
3793.000,3847.000,3744.000
3781.000,3793.000,3767.000
3810.000,3804.000,3702.000
3809.000,3802.000,3752.000
3821.000,3799.000,3821.000
3783.000,3747.000,3742.000
3842.000,3774.000,3731.000
3851.000,3804.000,3724.000
3828.000,3761.000,3711.000
3797.000,3778.000,3751.000
3853.000,3788.000,3779.000
3875.000,3778.000,3759.000
3856.000,3780.000,3766.000
3906.000,3770.000,3805.000
3853.000,3813.000,3738.000
3818.000,3823.000,3751.000
3815.000,3804.000,3749.000
3809.000,3834.000,3709.000
3811.000,3770.000,3735.000
3794.000,3829.000,3714.000
3804.000,3884.000,3801.000
3853.000,3845.000,3820.000
3792.000,3821.000,3804.000
3875.000,3783.000,3740.000
3834.000,3746.000,3778.000
3850.000,3763.000,3783.000
3857.000,3833.000,3786.000
3853.000,3808.000,3727.000
3862.000,3853.000,3777.000
3893.000,3820.000,3825.000
3915.000,3782.000,3810.000
3819.000,3789.000,3807.000
3835.000,3830.000,3839.000
3846.000,3868.000,3846.000
3855.000,3808.000,3794.000
3833.000,3810.000,3829.000
3811.000,3804.000,3766.000
3848.000,3845.000,3822.000
3890.000,3826.000,3816.000
3930.000,3905.000,3789.000
3864.000,3826.000,3783.000
3866.000,3839.000,3844.000
3885.000,3848.000,3823.000
3882.000,3840.000,3796.000
3868.000,3886.000,3815.000
3916.000,3880.000,3818.000
3930.000,3883.000,3847.000
3907.000,3860.000,3849.000
3931.000,3845.000,3868.000
3864.000,3877.000,3832.000
3909.000,3840.000,3831.000
3889.000,3800.000,3837.000
3853.000,3884.000,3829.000
3954.000,3839.000,3819.000
3878.000,3821.000,3831.000
3879.000,3880.000,3792.000
3841.000,3848.000,3824.000
3874.000,3780.000,3831.000
3876.000,3869.000,3807.000
3890.000,3880.000,3777.000
3945.000,3865.000,3831.000
3916.000,3835.000,3832.000
3873.000,3870.000,3765.000
3887.000,3869.000,3793.000
3848.000,3833.000,3817.000
3857.000,3891.000,3795.000
3897.000,3868.000,3859.000
3886.000,3871.000,3846.000
3902.000,3819.000,3814.000
3901.000,3874.000,3815.000
3927.000,3818.000,3820.000
3912.000,3819.000,3796.000
3894.000,3893.000,3851.000
3867.000,3850.000,3830.000
3911.000,3879.000,3836.000
3835.000,3858.000,3705.000
3825.000,3801.000,3770.000
3873.000,3890.000,3752.000
3871.000,3845.000,3785.000
3826.000,3817.000,3808.000
3839.000,3788.000,3792.000
3842.000,3803.000,3791.000
3859.000,3819.000,3799.000
3893.000,3848.000,3800.000
3826.000,3832.000,3755.000
3899.000,3778.000,3744.000
3867.000,3840.000,3793.000
3835.000,3775.000,3782.000
3921.000,3826.000,3792.000
3835.000,3857.000,3750.000
3859.000,3789.000,3780.000
3850.000,3772.000,3786.000
3766.000,3780.000,3793.000
3844.000,3807.000,3766.000
3839.000,3795.000,3748.000
3769.000,3740.000,3779.000
3816.000,3775.000,3713.000
3817.000,3758.000,3766.000
3876.000,3819.000,3788.000
3907.000,3793.000,3797.000
3838.000,3824.000,3736.000
3836.000,3794.000,3810.000
3800.000,3844.000,3799.000
3895.000,3834.000,3769.000
3841.000,3799.000,3770.000
3851.000,3773.000,3811.000
3829.000,3828.000,3747.000
3827.000,3744.000,3771.000
3818.000,3787.000,3789.000
3790.000,3761.000,3690.000
3858.000,3803.000,3828.000
3830.000,3830.000,3794.000
3899.000,3803.000,3806.000
3798.000,3814.000,3799.000
3834.000,3794.000,3804.000
3782.000,3754.000,3779.000
3869.000,3827.000,3773.000
3836.000,3793.000,3809.000
3812.000,3827.000,3798.000
3798.000,3886.000,3782.000
3858.000,3867.000,3774.000
3855.000,3848.000,3802.000
3859.000,3773.000,3775.000
3855.000,3797.000,3799.000
3839.000,3824.000,3826.000
3869.000,3779.000,3821.000
3845.000,3806.000,3775.000
3883.000,3833.000,3803.000
3871.000,3819.000,3791.000
3854.000,3831.000,3801.000
3851.000,3812.000,3717.000
3813.000,3776.000,3753.000
3837.000,3779.000,3830.000
3811.000,3837.000,3746.000
3857.000,3825.000,3787.000
3825.000,3789.000,3832.000
3865.000,3816.000,3764.000
3870.000,3795.000,3750.000
3885.000,3841.000,3821.000
3844.000,3848.000,3767.000
3871.000,3839.000,3754.000
3845.000,3805.000,3749.000
3860.000,3785.000,3750.000
3828.000,3811.000,3725.000
3866.000,3811.000,3758.000
3827.000,3783.000,3790.000
3846.000,3808.000,3749.000
3776.000,3834.000,3766.000
3857.000,3817.000,3815.000
3843.000,3852.000,3713.000
3797.000,3829.000,3751.000
3834.000,3780.000,3783.000
3849.000,3746.000,3751.000
3789.000,3846.000,3730.000
3778.000,3780.000,3730.000
3799.000,3774.000,3707.000
3838.000,3748.000,3816.000
3783.000,3775.000,3756.000
3810.000,3752.000,3734.000
3788.000,3769.000,3737.000
3856.000,3780.000,3777.000
3828.000,3861.000,3758.000
3810.000,3803.000,3756.000
3835.000,3806.000,3793.000
3844.000,3814.000,3771.000
3787.000,3826.000,3748.000
3809.000,3773.000,3786.000
3817.000,3739.000,3763.000
3779.000,3757.000,3803.000
3811.000,3787.000,3760.000
3819.000,3818.000,3745.000
3816.000,3805.000,3764.000
3808.000,3790.000,3731.000
3797.000,3814.000,3735.000
3744.000,3799.000,3807.000
3792.000,3742.000,3728.000
3783.000,3796.000,3724.000
3779.000,3768.000,3725.000
3791.000,3783.000,3790.000
3814.000,3734.000,3774.000
3796.000,3781.000,3688.000
3824.000,3804.000,3731.000
3810.000,3756.000,3721.000
3803.000,3726.000,3765.000
3815.000,3737.000,3753.000
3844.000,3818.000,3757.000
3776.000,3808.000,3744.000
3777.000,3763.000,3728.000
3736.000,3768.000,3685.000
3771.000,3726.000,3701.000
3855.000,3733.000,3712.000
3741.000,3736.000,3756.000
3799.000,3764.000,3696.000
3771.000,3817.000,3693.000
3812.000,3719.000,3739.000
3787.000,3769.000,3717.000
3835.000,3733.000,3733.000
3757.000,3711.000,3712.000
3726.000,3784.000,3768.000
3781.000,3765.000,3708.000
3757.000,3763.000,3717.000
3753.000,3685.000,3693.000
3759.000,3742.000,3688.000
3785.000,3708.000,3722.000
3756.000,3744.000,3711.000
3766.000,3762.000,3670.000
3763.000,3747.000,3692.000
3713.000,3714.000,3641.000
3777.000,3759.000,3673.000
3785.000,3729.000,3719.000
3729.000,3738.000,3701.000
3760.000,3748.000,3681.000
3743.000,3745.000,3678.000
3767.000,3674.000,3699.000
3752.000,3666.000,3665.000
3758.000,3718.000,3684.000
3742.000,3717.000,3649.000
3729.000,3707.000,3703.000
3764.000,3707.000,3699.000
3739.000,3703.000,3649.000
3677.000,3751.000,3651.000
3752.000,3675.000,3631.000
3737.000,3732.000,3674.000
3707.000,3692.000,3689.000
3742.000,3673.000,3706.000
3687.000,3684.000,3652.000
3758.000,3726.000,3665.000
3763.000,3760.000,3607.000
3762.000,3761.000,3654.000
3739.000,3718.000,3653.000
3740.000,3712.000,3678.000
3729.000,3717.000,3672.000
3744.000,3685.000,3660.000
3764.000,3695.000,3725.000
3727.000,3689.000,3700.000
3754.000,3695.000,3731.000
3719.000,3681.000,3640.000
3722.000,3695.000,3643.000
3771.000,3668.000,3642.000
3772.000,3695.000,3647.000
3726.000,3668.000,3646.000
3778.000,3677.000,3686.000
3679.000,3652.000,3683.000
3756.000,3678.000,3627.000
3704.000,3673.000,3646.000
3740.000,3667.000,3688.000
3711.000,3655.000,3669.000
3765.000,3691.000,3664.000
3692.000,3687.000,3641.000
3719.000,3732.000,3669.000
3701.000,3697.000,3696.000
3739.000,3701.000,3630.000
3730.000,3701.000,3658.000
3723.000,3711.000,3665.000
3729.000,3749.000,3636.000
3747.000,3745.000,3690.000
3700.000,3733.000,3652.000
3680.000,3630.000,3657.000
3691.000,3698.000,3619.000
3727.000,3724.000,3643.000
3761.000,3688.000,3637.000
3718.000,3728.000,3696.000
3749.000,3658.000,3648.000
3741.000,3744.000,3686.000
3729.000,3686.000,3707.000
3707.000,3696.000,3662.000
3759.000,3753.000,3711.000
3770.000,3720.000,3749.000
3701.000,3734.000,3639.000
3700.000,3646.000,3633.000
3716.000,3652.000,3690.000
3749.000,3692.000,3616.000
3730.000,3703.000,3705.000
3723.000,3685.000,3632.000
3758.000,3689.000,3687.000
3737.000,3686.000,3661.000
3733.000,3664.000,3665.000
3746.000,3672.000,3671.000
3674.000,3655.000,3677.000
3667.000,3666.000,3672.000
3731.000,3629.000,3590.000
3708.000,3651.000,3643.000
3689.000,3653.000,3663.000
3685.000,3634.000,3630.000
3694.000,3671.000,3621.000
3620.000,3633.000,3597.000
3703.000,3651.000,3618.000
3714.000,3680.000,3641.000
3710.000,3666.000,3670.000
3716.000,3661.000,3673.000
3648.000,3669.000,3641.000
3671.000,3642.000,3663.000
3677.000,3655.000,3636.000
3638.000,3606.000,3582.000
3678.000,3624.000,3605.000
3633.000,3647.000,3601.000
3608.000,3635.000,3590.000
3693.000,3629.000,3621.000
3646.000,3587.000,3572.000
3671.000,3652.000,3658.000
3667.000,3600.000,3606.000
3633.000,3676.000,3568.000
3643.000,3601.000,3617.000
3676.000,3607.000,3568.000
3631.000,3611.000,3587.000
3651.000,3582.000,3521.000
3664.000,3598.000,3595.000
3620.000,3587.000,3542.000
3604.000,3547.000,3553.000
3671.000,3577.000,3606.000
3621.000,3585.000,3589.000
3609.000,3631.000,3578.000
3570.000,3549.000,3559.000
3640.000,3647.000,3543.000
3640.000,3620.000,3528.000
3611.000,3639.000,3627.000
3641.000,3623.000,3577.000
3647.000,3598.000,3554.000
3590.000,3548.000,3554.000
3606.000,3602.000,3592.000
3682.000,3631.000,3563.000
3648.000,3620.000,3592.000
3633.000,3575.000,3584.000
3623.000,3517.000,3566.000
3605.000,3609.000,3569.000
3575.000,3590.000,3515.000
3615.000,3585.000,3609.000
3612.000,3587.000,3550.000
3627.000,3584.000,3518.000
3666.000,3614.000,3548.000
3619.000,3621.000,3595.000
3617.000,3611.000,3518.000
3625.000,3581.000,3530.000
3588.000,3626.000,3551.000
3674.000,3576.000,3611.000
3633.000,3619.000,3583.000
3632.000,3554.000,3543.000
3627.000,3597.000,3567.000
3686.000,3595.000,3629.000
3585.000,3592.000,3567.000
3616.000,3616.000,3591.000
3641.000,3596.000,3546.000
3598.000,3575.000,3540.000
3598.000,3580.000,3562.000
3613.000,3590.000,3513.000
3629.000,3580.000,3551.000
3634.000,3586.000,3543.000
3595.000,3594.000,3561.000
3594.000,3539.000,3585.000
3645.000,3612.000,3553.000
3641.000,3585.000,3563.000
3637.000,3544.000,3559.000
3618.000,3588.000,3523.000
3603.000,3615.000,3555.000
3651.000,3597.000,3561.000
3593.000,3584.000,3563.000
3645.000,3574.000,3566.000
3558.000,3595.000,3548.000
3612.000,3576.000,3543.000
3596.000,3549.000,3544.000
3639.000,3606.000,3514.000
3602.000,3553.000,3550.000
3547.000,3556.000,3568.000
3576.000,3609.000,3545.000
3585.000,3502.000,3531.000
3571.000,3548.000,3501.000
3535.000,3549.000,3507.000
3652.000,3561.000,3543.000
3589.000,3494.000,3529.000
3545.000,3574.000,3508.000
3523.000,3491.000,3510.000
3543.000,3517.000,3529.000
3542.000,3527.000,3502.000
3542.000,3510.000,3495.000
3511.000,3504.000,3443.000
3569.000,3499.000,3477.000
3481.000,3503.000,3475.000
3485.000,3500.000,3474.000
3517.000,3512.000,3455.000
3486.000,3524.000,3440.000
3546.000,3508.000,3476.000
3442.000,3476.000,3463.000
3575.000,3463.000,3426.000
3481.000,3479.000,3467.000
3494.000,3513.000,3471.000
3531.000,3505.000,3518.000
3497.000,3510.000,3489.000
3535.000,3491.000,3465.000
3559.000,3481.000,3467.000
3541.000,3461.000,3452.000
3471.000,3471.000,3445.000
3512.000,3456.000,3436.000
3535.000,3491.000,3496.000
3497.000,3448.000,3416.000
3496.000,3451.000,3417.000
3469.000,3453.000,3449.000
3480.000,3459.000,3419.000
3505.000,3473.000,3478.000
3505.000,3477.000,3483.000
3500.000,3467.000,3410.000
3520.000,3460.000,3491.000
3492.000,3456.000,3437.000
3460.000,3497.000,3444.000
3495.000,3469.000,3407.000
3462.000,3412.000,3455.000
3445.000,3423.000,3375.000
3433.000,3427.000,3417.000
3490.000,3445.000,3414.000
3467.000,3450.000,3418.000
3472.000,3400.000,3398.000
3455.000,3480.000,3478.000
3399.000,3437.000,3423.000
3466.000,3398.000,3392.000
3444.000,3435.000,3433.000
3438.000,3404.000,3435.000
3445.000,3388.000,3408.000
3461.000,3439.000,3419.000
3424.000,3432.000,3373.000
3455.000,3412.000,3395.000
3444.000,3381.000,3403.000
3435.000,3403.000,3389.000
3431.000,3413.000,3423.000
3433.000,3437.000,3354.000
3448.000,3386.000,3443.000
3407.000,3381.000,3438.000
3376.000,3380.000,3360.000
3400.000,3428.000,3439.000
3438.000,3384.000,3333.000
3415.000,3345.000,3371.000
3409.000,3397.000,3379.000
3404.000,3390.000,3368.000
3387.000,3408.000,3405.000
3445.000,3400.000,3364.000
3384.000,3346.000,3352.000
3413.000,3358.000,3350.000
3401.000,3365.000,3328.000
3414.000,3432.000,3382.000
3411.000,3356.000,3338.000
3463.000,3413.000,3345.000
3393.000,3418.000,3324.000
3373.000,3390.000,3362.000
3357.000,3376.000,3355.000
3362.000,3389.000,3386.000
3372.000,3397.000,3363.000
3380.000,3403.000,3328.000
3401.000,3377.000,3355.000
3355.000,3356.000,3364.000
3387.000,3374.000,3389.000
3383.000,3396.000,3339.000
3383.000,3371.000,3316.000
3339.000,3335.000,3271.000
3383.000,3343.000,3308.000
3343.000,3343.000,3284.000
3328.000,3303.000,3250.000
3371.000,3335.000,3307.000
3337.000,3293.000,3255.000
3324.000,3299.000,3286.000
3335.000,3352.000,3248.000
3347.000,3276.000,3326.000
3315.000,3332.000,3241.000
3313.000,3300.000,3337.000
3285.000,3277.000,3244.000
3273.000,3281.000,3276.000
3279.000,3283.000,3290.000
3323.000,3268.000,3294.000
3363.000,3274.000,3309.000
3304.000,3223.000,3237.000
3278.000,3278.000,3236.000
3287.000,3248.000,3275.000
3299.000,3272.000,3205.000
3394.000,3287.000,3274.000
3279.000,3327.000,3273.000
3318.000,3242.000,3228.000
3304.000,3272.000,3258.000
3259.000,3268.000,3258.000
3306.000,3238.000,3269.000
3235.000,3225.000,3267.000
3271.000,3248.000,3203.000
3311.000,3314.000,3255.000
3255.000,3300.000,3244.000
3283.000,3224.000,3191.000
3277.000,3231.000,3212.000
3247.000,3211.000,3199.000
3240.000,3203.000,3167.000
3263.000,3172.000,3198.000
3256.000,3196.000,3187.000
3210.000,3221.000,3181.000
3212.000,3207.000,3197.000
3284.000,3228.000,3235.000
3226.000,3169.000,3168.000
3223.000,3195.000,3163.000
3233.000,3166.000,3125.000
3220.000,3197.000,3167.000
3230.000,3228.000,3179.000
3179.000,3181.000,3171.000
3213.000,3148.000,3166.000
3232.000,3206.000,3182.000
3205.000,3183.000,3181.000
3203.000,3236.000,3146.000
3224.000,3156.000,3175.000
3199.000,3178.000,3160.000
3175.000,3220.000,3114.000
3230.000,3188.000,3187.000
3184.000,3160.000,3171.000
3197.000,3108.000,3188.000
3123.000,3174.000,3119.000
3167.000,3140.000,3121.000
3180.000,3196.000,3165.000
3219.000,3122.000,3139.000
3172.000,3114.000,3188.000
3169.000,3148.000,3083.000
3171.000,3122.000,3125.000
3113.000,3105.000,3090.000
3102.000,3139.000,3058.000
3175.000,3125.000,3051.000
3111.000,3067.000,3071.000
3086.000,3129.000,3115.000
3150.000,3074.000,3065.000
3090.000,3119.000,3077.000
3120.000,3080.000,3051.000
3142.000,3086.000,3071.000
3094.000,3121.000,3062.000
3117.000,3113.000,3101.000
3100.000,3127.000,3040.000
3110.000,3120.000,3072.000
3086.000,3102.000,3060.000
3126.000,3082.000,3071.000
3013.000,3044.000,3007.000
3052.000,3066.000,3012.000
3054.000,3073.000,3026.000
3107.000,3047.000,3027.000
3059.000,3051.000,3036.000
3075.000,3036.000,3046.000
3100.000,3017.000,3042.000
3082.000,3059.000,3003.000
3084.000,3092.000,3073.000
3046.000,3044.000,3044.000
3051.000,3025.000,3042.000
3053.000,3096.000,3003.000
3095.000,2985.000,2986.000
3033.000,3065.000,3038.000
3064.000,3034.000,2977.000
3045.000,3058.000,3019.000
3042.000,3017.000,2993.000
3013.000,2966.000,3002.000
3026.000,2970.000,2986.000
3003.000,2977.000,2933.000
2985.000,3003.000,2933.000
2981.000,2961.000,3015.000
2959.000,2943.000,2956.000
2978.000,2955.000,2940.000
2996.000,2961.000,2937.000
2986.000,2942.000,2949.000
2990.000,2993.000,2968.000
2977.000,2959.000,2979.000
3011.000,2994.000,2964.000
2982.000,2982.000,2961.000
2975.000,2971.000,2939.000
2941.000,2960.000,2939.000
2952.000,2992.000,2916.000
2986.000,2946.000,2943.000
2961.000,2977.000,2944.000
2921.000,2937.000,2909.000
2983.000,2909.000,2947.000
2930.000,2987.000,2843.000
2917.000,2924.000,2903.000
2962.000,2979.000,2912.000
2929.000,2922.000,2933.000
2864.000,2893.000,2869.000
2910.000,2905.000,2841.000
2911.000,2874.000,2900.000
2912.000,2947.000,2876.000
2908.000,2876.000,2877.000
2878.000,2910.000,2867.000
2928.000,2869.000,2867.000
2929.000,2891.000,2885.000
2887.000,2895.000,2887.000
2906.000,2910.000,2870.000
2929.000,2888.000,2871.000
2870.000,2852.000,2916.000
2923.000,2924.000,2840.000
2928.000,2891.000,2889.000
2890.000,2900.000,2911.000
2916.000,2880.000,2857.000
2857.000,2858.000,2840.000
2914.000,2913.000,2881.000
2881.000,2837.000,2866.000
2911.000,2846.000,2834.000
2859.000,2854.000,2863.000
2861.000,2888.000,2839.000
2844.000,2821.000,2858.000
2863.000,2813.000,2862.000
2882.000,2849.000,2805.000
2879.000,2835.000,2812.000
2875.000,2838.000,2816.000
2884.000,2845.000,2860.000
2936.000,2833.000,2848.000
2877.000,2876.000,2877.000
2889.000,2862.000,2833.000
2877.000,2876.000,2838.000
2824.000,2824.000,2818.000
2872.000,2883.000,2824.000
2874.000,2878.000,2844.000
2861.000,2851.000,2876.000
2871.000,2856.000,2866.000
2831.000,2855.000,2834.000
2862.000,2809.000,2806.000
2845.000,2803.000,2839.000
2826.000,2870.000,2822.000
2838.000,2844.000,2811.000
2827.000,2846.000,2775.000
2820.000,2839.000,2775.000
2815.000,2791.000,2819.000
2848.000,2822.000,2818.000
2858.000,2836.000,2816.000
2867.000,2847.000,2823.000
2900.000,2810.000,2865.000
2895.000,2824.000,2832.000
2844.000,2849.000,2789.000
2836.000,2850.000,2799.000
2837.000,2827.000,2811.000
2836.000,2810.000,2827.000
2863.000,2847.000,2784.000
2860.000,2829.000,2833.000
2775.000,2836.000,2789.000
2796.000,2827.000,2784.000
2827.000,2782.000,2798.000
2844.000,2811.000,2785.000
2828.000,2832.000,2848.000
2868.000,2818.000,2787.000
2852.000,2802.000,2800.000
2851.000,2862.000,2784.000
2834.000,2833.000,2796.000
2806.000,2814.000,2787.000
2856.000,2820.000,2799.000
2863.000,2837.000,2815.000
2915.000,2837.000,2827.000
2835.000,2817.000,2768.000
2829.000,2804.000,2783.000
2787.000,2785.000,2790.000
2837.000,2789.000,2766.000
2806.000,2806.000,2772.000
2802.000,2820.000,2784.000
2823.000,2832.000,2775.000
2861.000,2767.000,2762.000
2798.000,2837.000,2794.000
2861.000,2836.000,2821.000
2878.000,2840.000,2779.000
2784.000,2804.000,2768.000
2828.000,2809.000,2799.000
2815.000,2791.000,2789.000
2847.000,2826.000,2756.000
2804.000,2796.000,2796.000
2783.000,2755.000,2761.000
2806.000,2758.000,2812.000
2768.000,2766.000,2775.000
2776.000,2777.000,2740.000
2815.000,2807.000,2825.000
2762.000,2782.000,2804.000
2821.000,2782.000,2758.000
2803.000,2780.000,2807.000
2831.000,2771.000,2764.000
2811.000,2799.000,2771.000
2781.000,2795.000,2751.000
2815.000,2836.000,2829.000
2835.000,2834.000,2830.000
2855.000,2824.000,2830.000
2869.000,2830.000,2792.000
2890.000,2795.000,2803.000
2874.000,2866.000,2831.000
2826.000,2802.000,2783.000
2822.000,2798.000,2769.000
2828.000,2787.000,2799.000
2811.000,2798.000,2785.000
2773.000,2781.000,2799.000
2828.000,2755.000,2737.000
2788.000,2834.000,2742.000
2840.000,2790.000,2825.000
2846.000,2793.000,2763.000
2852.000,2813.000,2786.000
2827.000,2817.000,2805.000
2808.000,2785.000,2781.000
2830.000,2797.000,2828.000
2844.000,2814.000,2798.000
2839.000,2794.000,2784.000
2889.000,2798.000,2827.000
2796.000,2802.000,2763.000
2798.000,2819.000,2781.000
2841.000,2821.000,2757.000
2824.000,2792.000,2782.000
2788.000,2790.000,2807.000
2787.000,2789.000,2779.000
2835.000,2791.000,2797.000
2811.000,2810.000,2793.000
2801.000,2853.000,2811.000
2792.000,2785.000,2793.000
2786.000,2786.000,2784.000
2804.000,2764.000,2769.000
2818.000,2773.000,2782.000
2763.000,2807.000,2782.000
2830.000,2787.000,2767.000
2799.000,2815.000,2729.000
2804.000,2825.000,2811.000
2846.000,2780.000,2831.000
2827.000,2778.000,2798.000
2778.000,2806.000,2788.000
2801.000,2783.000,2778.000
2832.000,2819.000,2769.000
2809.000,2833.000,2785.000
2804.000,2785.000,2765.000
2822.000,2842.000,2784.000
2792.000,2782.000,2797.000
2753.000,2768.000,2752.000
2822.000,2783.000,2757.000
2810.000,2768.000,2782.000
2793.000,2786.000,2751.000
2765.000,2805.000,2745.000
2810.000,2778.000,2748.000
2779.000,2816.000,2764.000
2757.000,2742.000,2734.000
2817.000,2739.000,2706.000
2776.000,2767.000,2751.000
2765.000,2806.000,2743.000
2793.000,2738.000,2735.000
2801.000,2758.000,2724.000
2764.000,2768.000,2752.000
2759.000,2749.000,2745.000
2759.000,2779.000,2749.000
2816.000,2780.000,2745.000
2809.000,2750.000,2744.000
2785.000,2749.000,2723.000
2796.000,2751.000,2731.000
2759.000,2779.000,2753.000
2769.000,2746.000,2732.000
2792.000,2797.000,2798.000
2798.000,2745.000,2722.000
2740.000,2714.000,2682.000
2763.000,2740.000,2677.000
2705.000,2730.000,2740.000
2762.000,2727.000,2698.000
2702.000,2716.000,2635.000
2719.000,2693.000,2710.000
2769.000,2708.000,2700.000
2739.000,2691.000,2678.000
2726.000,2681.000,2654.000
2725.000,2682.000,2661.000
2702.000,2689.000,2684.000
2683.000,2686.000,2658.000
2684.000,2704.000,2659.000
2729.000,2668.000,2706.000
2724.000,2677.000,2665.000
2718.000,2716.000,2674.000
2718.000,2670.000,2692.000
2678.000,2672.000,2614.000
2748.000,2686.000,2691.000
2722.000,2684.000,2683.000
2739.000,2687.000,2662.000
2708.000,2657.000,2693.000
2708.000,2668.000,2670.000
2675.000,2666.000,2673.000
2669.000,2706.000,2671.000
2683.000,2676.000,2675.000
2717.000,2699.000,2697.000
2652.000,2680.000,2618.000
2693.000,2611.000,2680.000
2672.000,2652.000,2672.000
2674.000,2654.000,2676.000
2686.000,2658.000,2651.000
2668.000,2641.000,2666.000
2661.000,2667.000,2609.000
2669.000,2649.000,2645.000
2644.000,2675.000,2650.000
2642.000,2627.000,2622.000
2695.000,2615.000,2610.000
2634.000,2650.000,2649.000
2640.000,2627.000,2611.000
2618.000,2593.000,2611.000
2594.000,2618.000,2600.000
2619.000,2578.000,2626.000
2642.000,2608.000,2617.000
2631.000,2639.000,2592.000
2595.000,2604.000,2636.000
2634.000,2573.000,2629.000
2638.000,2616.000,2586.000
2560.000,2619.000,2561.000
2563.000,2580.000,2573.000
2603.000,2575.000,2547.000
2591.000,2597.000,2550.000
2587.000,2592.000,2578.000
2628.000,2569.000,2545.000
2600.000,2607.000,2567.000
2633.000,2572.000,2572.000
2631.000,2620.000,2597.000
2583.000,2605.000,2581.000
2597.000,2571.000,2596.000
2592.000,2623.000,2572.000
2614.000,2590.000,2554.000
2587.000,2565.000,2543.000
2613.000,2570.000,2580.000
2588.000,2595.000,2571.000
2590.000,2594.000,2576.000
2609.000,2573.000,2575.000
2555.000,2600.000,2563.000
2596.000,2557.000,2590.000
2576.000,2602.000,2582.000
2557.000,2572.000,2562.000
2572.000,2565.000,2561.000
2594.000,2558.000,2540.000
2570.000,2530.000,2557.000
2537.000,2531.000,2543.000
2534.000,2515.000,2525.000
2537.000,2554.000,2531.000
2552.000,2559.000,2496.000
2492.000,2497.000,2518.000
2552.000,2533.000,2515.000
2522.000,2504.000,2511.000
2494.000,2479.000,2475.000
2501.000,2457.000,2488.000
2500.000,2458.000,2487.000
2485.000,2461.000,2464.000
2522.000,2450.000,2494.000
2470.000,2480.000,2507.000
2453.000,2526.000,2434.000
2515.000,2486.000,2479.000
2569.000,2467.000,2513.000
2473.000,2469.000,2480.000
2507.000,2523.000,2447.000
2520.000,2486.000,2494.000
2507.000,2473.000,2461.000
2514.000,2500.000,2430.000
2526.000,2483.000,2504.000
2542.000,2446.000,2470.000
2474.000,2481.000,2432.000
2492.000,2470.000,2468.000
2532.000,2515.000,2475.000
2527.000,2518.000,2476.000
2500.000,2472.000,2454.000
2477.000,2477.000,2487.000
2471.000,2468.000,2462.000
2531.000,2465.000,2492.000
2500.000,2491.000,2430.000
2440.000,2449.000,2423.000
2473.000,2470.000,2431.000
2471.000,2413.000,2451.000
2489.000,2454.000,2440.000
2466.000,2421.000,2457.000
2412.000,2470.000,2446.000
2458.000,2436.000,2440.000
2460.000,2436.000,2445.000
2447.000,2480.000,2393.000
2414.000,2385.000,2432.000
2391.000,2412.000,2397.000
2421.000,2426.000,2419.000
2448.000,2438.000,2385.000
2402.000,2389.000,2384.000
2394.000,2412.000,2369.000
2435.000,2454.000,2370.000
2402.000,2413.000,2383.000
2402.000,2363.000,2345.000
2394.000,2375.000,2371.000
2403.000,2358.000,2368.000
2381.000,2337.000,2367.000
2356.000,2345.000,2381.000
2388.000,2345.000,2370.000
2366.000,2347.000,2351.000
2351.000,2339.000,2342.000
2361.000,2352.000,2351.000
2371.000,2378.000,2329.000
2365.000,2359.000,2355.000
2350.000,2349.000,2332.000
2364.000,2353.000,2340.000
2353.000,2316.000,2334.000
2359.000,2362.000,2350.000
2370.000,2321.000,2360.000
2357.000,2326.000,2355.000
2333.000,2357.000,2349.000
2342.000,2372.000,2325.000
2341.000,2347.000,2343.000
2337.000,2373.000,2351.000
2333.000,2340.000,2339.000
2363.000,2370.000,2375.000
2346.000,2333.000,2333.000
2323.000,2310.000,2324.000
2350.000,2346.000,2302.000
2316.000,2364.000,2321.000
2336.000,2339.000,2290.000
2304.000,2304.000,2286.000
2323.000,2307.000,2295.000
2306.000,2318.000,2293.000
2343.000,2299.000,2287.000
2305.000,2311.000,2257.000
2296.000,2267.000,2268.000
2310.000,2279.000,2291.000
2287.000,2320.000,2310.000
2233.000,2252.000,2254.000
2264.000,2246.000,2253.000
2302.000,2235.000,2286.000
2219.000,2247.000,2282.000
2287.000,2258.000,2223.000
2261.000,2229.000,2261.000
2293.000,2270.000,2251.000
2250.000,2216.000,2280.000
2256.000,2230.000,2216.000
2268.000,2241.000,2234.000
2256.000,2239.000,2219.000
2238.000,2218.000,2240.000
2253.000,2207.000,2202.000
2203.000,2222.000,2189.000
2241.000,2232.000,2234.000
2204.000,2212.000,2213.000
2241.000,2203.000,2186.000
2277.000,2205.000,2215.000
2205.000,2237.000,2216.000
2237.000,2237.000,2226.000
2225.000,2239.000,2198.000
2218.000,2219.000,2200.000
2240.000,2219.000,2167.000
2209.000,2236.000,2218.000
2218.000,2205.000,2205.000
2213.000,2198.000,2231.000
2201.000,2205.000,2204.000
2202.000,2186.000,2217.000
2220.000,2223.000,2227.000
2213.000,2166.000,2176.000
2205.000,2173.000,2172.000
2187.000,2233.000,2188.000
2218.000,2206.000,2182.000
2195.000,2187.000,2162.000
2198.000,2145.000,2143.000
2189.000,2139.000,2133.000
2189.000,2181.000,2160.000
2170.000,2157.000,2138.000
2196.000,2177.000,2152.000
2164.000,2149.000,2145.000
2173.000,2159.000,2112.000
2129.000,2140.000,2111.000
2125.000,2162.000,2136.000
2164.000,2118.000,2115.000
2128.000,2118.000,2107.000
2151.000,2087.000,2091.000
2104.000,2112.000,2119.000
2114.000,2101.000,2095.000
2126.000,2096.000,2085.000
2088.000,2086.000,2092.000
2075.000,2087.000,2107.000
2089.000,2068.000,2093.000
2070.000,2070.000,2058.000
2074.000,2078.000,2041.000
2107.000,2064.000,2077.000
2100.000,2035.000,2056.000
2080.000,2043.000,2027.000
2079.000,2042.000,2038.000
2042.000,2038.000,2034.000
2055.000,2030.000,2043.000
2054.000,2011.000,2034.000
2024.000,2085.000,2010.000
2053.000,2033.000,2070.000
2039.000,2063.000,2015.000
2062.000,2053.000,2017.000
2077.000,2043.000,2044.000
2043.000,2041.000,2035.000
2036.000,2020.000,2024.000
2011.000,2046.000,2010.000
2044.000,2028.000,2020.000
2010.000,2047.000,2027.000
2035.000,2010.000,2009.000
1974.000,2020.000,1982.000
2019.000,2013.000,2025.000
2040.000,2003.000,1978.000
2001.000,2009.000,2010.000
1997.000,1997.000,1994.000
1999.000,1975.000,1969.000
1990.000,1987.000,1957.000
1999.000,1957.000,1997.000
1989.000,1983.000,1986.000
1984.000,1988.000,1984.000
1997.000,1944.000,1932.000
1961.000,1991.000,1947.000
1968.000,1991.000,1952.000
1935.000,1943.000,1960.000
1960.000,1973.000,1937.000
1949.000,1961.000,1973.000
1952.000,1915.000,1923.000
1959.000,1944.000,1907.000
1952.000,1912.000,1915.000
1902.000,1919.000,1936.000
1948.000,1911.000,1920.000
1924.000,1933.000,1902.000
1916.000,1902.000,1908.000
1939.000,1913.000,1899.000
1917.000,1911.000,1891.000
1896.000,1890.000,1873.000
1912.000,1897.000,1863.000
1900.000,1878.000,1905.000
1880.000,1873.000,1911.000
1902.000,1885.000,1859.000
1886.000,1876.000,1870.000
1892.000,1904.000,1895.000
1888.000,1874.000,1876.000
1877.000,1877.000,1880.000
1896.000,1870.000,1878.000
1874.000,1858.000,1872.000
1871.000,1860.000,1849.000
1874.000,1873.000,1871.000
1880.000,1894.000,1864.000
1868.000,1871.000,1850.000
1860.000,1883.000,1856.000
1890.000,1881.000,1868.000
1873.000,1877.000,1868.000
1883.000,1867.000,1859.000
1862.000,1880.000,1847.000
1883.000,1839.000,1848.000
1863.000,1831.000,1850.000
1850.000,1855.000,1843.000
1857.000,1827.000,1844.000
1851.000,1843.000,1862.000
1854.000,1852.000,1822.000
1854.000,1845.000,1858.000
1842.000,1831.000,1840.000
1846.000,1825.000,1814.000
1842.000,1802.000,1827.000
1848.000,1824.000,1830.000
1823.000,1848.000,1831.000
1810.000,1816.000,1826.000
1838.000,1819.000,1810.000
1836.000,1799.000,1763.000
1818.000,1816.000,1783.000
1822.000,1810.000,1794.000
1800.000,1780.000,1785.000
1785.000,1827.000,1779.000
1803.000,1787.000,1795.000
1776.000,1800.000,1781.000
1777.000,1797.000,1789.000
1782.000,1780.000,1777.000
1781.000,1747.000,1776.000
1781.000,1792.000,1767.000
1801.000,1771.000,1783.000
1787.000,1777.000,1780.000
1797.000,1773.000,1765.000
1775.000,1755.000,1748.000
1784.000,1762.000,1758.000
1773.000,1741.000,1755.000
1746.000,1759.000,1739.000
1760.000,1779.000,1759.000
1764.000,1768.000,1774.000
1761.000,1749.000,1739.000
1787.000,1752.000,1766.000
1764.000,1780.000,1768.000
1751.000,1762.000,1760.000
1769.000,1753.000,1765.000
1792.000,1764.000,1766.000
1769.000,1756.000,1767.000
1766.000,1764.000,1773.000
1762.000,1749.000,1745.000
1773.000,1763.000,1748.000
1753.000,1763.000,1731.000
1792.000,1749.000,1743.000
1751.000,1755.000,1719.000
1737.000,1728.000,1736.000
1768.000,1766.000,1758.000
1769.000,1753.000,1747.000
1737.000,1749.000,1731.000
1759.000,1740.000,1742.000
1749.000,1723.000,1754.000
1751.000,1747.000,1746.000
1708.000,1741.000,1726.000
1759.000,1732.000,1712.000
1730.000,1726.000,1702.000
1718.000,1719.000,1716.000
1726.000,1702.000,1704.000
1744.000,1751.000,1708.000
1741.000,1722.000,1731.000
1719.000,1719.000,1725.000
1738.000,1742.000,1714.000
1746.000,1727.000,1708.000
1751.000,1755.000,1720.000
1729.000,1756.000,1713.000
1758.000,1722.000,1748.000
1732.000,1735.000,1726.000
1739.000,1748.000,1732.000
1749.000,1737.000,1723.000
1734.000,1731.000,1727.000
1732.000,1734.000,1734.000
1719.000,1734.000,1751.000
1751.000,1758.000,1743.000
1762.000,1729.000,1758.000
1767.000,1750.000,1748.000
1732.000,1738.000,1740.000
1748.000,1739.000,1753.000
1744.000,1731.000,1715.000
1760.000,1752.000,1750.000
1718.000,1739.000,1715.000
1749.000,1743.000,1721.000
1733.000,1726.000,1721.000
1742.000,1745.000,1726.000
1712.000,1726.000,1724.000
1727.000,1723.000,1697.000
1707.000,1725.000,1726.000
1722.000,1712.000,1700.000
1716.000,1712.000,1726.000
1743.000,1716.000,1721.000
1724.000,1702.000,1713.000
1719.000,1709.000,1715.000
1728.000,1736.000,1734.000
1717.000,1723.000,1733.000
1726.000,1709.000,1724.000
1737.000,1701.000,1698.000
1741.000,1725.000,1716.000
1750.000,1725.000,1724.000
1748.000,1718.000,1725.000
1734.000,1708.000,1695.000
1712.000,1750.000,1735.000
1753.000,1749.000,1737.000
1745.000,1743.000,1716.000
1754.000,1748.000,1752.000
1724.000,1742.000,1722.000
1751.000,1738.000,1744.000
1712.000,1752.000,1718.000
1716.000,1740.000,1729.000
1756.000,1721.000,1737.000
1739.000,1719.000,1742.000
1760.000,1724.000,1749.000
1731.000,1726.000,1743.000
1738.000,1720.000,1728.000
1738.000,1755.000,1737.000
1748.000,1747.000,1713.000
1761.000,1725.000,1744.000
1754.000,1747.000,1747.000
1742.000,1728.000,1716.000
1752.000,1721.000,1728.000
1737.000,1743.000,1728.000
1743.000,1708.000,1690.000
1733.000,1736.000,1724.000
1747.000,1735.000,1710.000
1724.000,1742.000,1704.000
1726.000,1697.000,1709.000
1728.000,1719.000,1732.000
1722.000,1709.000,1720.000
1727.000,1705.000,1699.000
1746.000,1719.000,1711.000
1691.000,1691.000,1726.000
1721.000,1704.000,1704.000
1709.000,1717.000,1707.000
1713.000,1697.000,1717.000
1693.000,1703.000,1712.000
1728.000,1710.000,1686.000
1712.000,1722.000,1721.000
1707.000,1725.000,1706.000
1727.000,1714.000,1696.000
1724.000,1696.000,1728.000
1721.000,1728.000,1708.000
1705.000,1695.000,1696.000
1731.000,1724.000,1703.000
1713.000,1728.000,1700.000
1715.000,1691.000,1704.000
1745.000,1713.000,1735.000
1705.000,1723.000,1716.000
1722.000,1750.000,1717.000
1742.000,1723.000,1703.000
1765.000,1731.000,1733.000
1728.000,1736.000,1700.000
1743.000,1726.000,1715.000
1712.000,1721.000,1724.000
1734.000,1723.000,1704.000
1756.000,1713.000,1713.000
1729.000,1730.000,1738.000
1731.000,1726.000,1726.000
1737.000,1729.000,1709.000
1755.000,1719.000,1740.000
1717.000,1720.000,1729.000
1745.000,1725.000,1721.000
1741.000,1712.000,1722.000
1769.000,1723.000,1705.000
1762.000,1691.000,1710.000
1720.000,1726.000,1753.000
1719.000,1696.000,1703.000
1714.000,1694.000,1715.000
1727.000,1719.000,1710.000
1738.000,1701.000,1697.000
1727.000,1716.000,1721.000
1707.000,1704.000,1699.000
1706.000,1716.000,1700.000
1706.000,1727.000,1682.000
1704.000,1677.000,1706.000
1718.000,1683.000,1712.000
1700.000,1683.000,1697.000
1700.000,1718.000,1686.000
1700.000,1722.000,1696.000
1711.000,1701.000,1710.000
1688.000,1705.000,1693.000
1710.000,1709.000,1702.000
1713.000,1707.000,1703.000
1725.000,1704.000,1704.000
1726.000,1730.000,1706.000
1747.000,1720.000,1721.000
1714.000,1710.000,1705.000
1729.000,1725.000,1703.000
1716.000,1716.000,1702.000
1724.000,1704.000,1715.000
1725.000,1719.000,1702.000
1743.000,1714.000,1726.000
1714.000,1717.000,1695.000
1726.000,1725.000,1728.000
1715.000,1712.000,1716.000
1714.000,1716.000,1729.000
1703.000,1710.000,1705.000
1723.000,1709.000,1721.000
1713.000,1732.000,1700.000
1707.000,1708.000,1709.000
1711.000,1695.000,1712.000
1714.000,1702.000,1714.000
1711.000,1714.000,1691.000
1701.000,1692.000,1683.000
1684.000,1689.000,1684.000
1724.000,1691.000,1696.000
1708.000,1722.000,1701.000
1686.000,1691.000,1682.000
1678.000,1683.000,1685.000
1685.000,1684.000,1671.000
1679.000,1686.000,1667.000
1687.000,1707.000,1687.000
1689.000,1673.000,1683.000
1692.000,1674.000,1667.000
1678.000,1687.000,1686.000
1696.000,1692.000,1708.000
1701.000,1688.000,1664.000
1703.000,1702.000,1683.000
1687.000,1701.000,1697.000
1696.000,1698.000,1683.000
1706.000,1680.000,1683.000
1708.000,1717.000,1687.000
1715.000,1681.000,1692.000
1715.000,1707.000,1693.000
1701.000,1702.000,1711.000
1705.000,1685.000,1707.000
1707.000,1695.000,1707.000
1721.000,1681.000,1685.000
1725.000,1689.000,1712.000
1716.000,1674.000,1691.000
1711.000,1715.000,1686.000
1703.000,1708.000,1717.000
1685.000,1704.000,1693.000
1693.000,1676.000,1688.000
1688.000,1716.000,1705.000
1679.000,1684.000,1672.000
1678.000,1687.000,1701.000
1683.000,1707.000,1689.000
1701.000,1671.000,1668.000
1703.000,1657.000,1686.000
1676.000,1666.000,1671.000
1657.000,1665.000,1662.000
1665.000,1655.000,1684.000
1664.000,1655.000,1662.000
1681.000,1669.000,1659.000
1673.000,1648.000,1661.000
1678.000,1657.000,1657.000
1644.000,1660.000,1661.000
1674.000,1674.000,1665.000
1664.000,1657.000,1662.000
1647.000,1646.000,1665.000
1653.000,1645.000,1663.000
1662.000,1647.000,1658.000
1678.000,1637.000,1646.000
1667.000,1695.000,1653.000
1663.000,1667.000,1668.000
1672.000,1665.000,1658.000
1666.000,1670.000,1659.000
1683.000,1673.000,1661.000
1694.000,1666.000,1666.000
1682.000,1672.000,1663.000
1688.000,1656.000,1650.000
1662.000,1664.000,1679.000
1694.000,1683.000,1670.000
1690.000,1670.000,1667.000
1671.000,1661.000,1666.000
1679.000,1663.000,1663.000
1679.000,1628.000,1657.000
1665.000,1674.000,1656.000
1662.000,1667.000,1666.000
1657.000,1646.000,1632.000
1659.000,1656.000,1624.000
1638.000,1639.000,1658.000
1658.000,1653.000,1649.000
1655.000,1642.000,1641.000
1640.000,1644.000,1644.000
1632.000,1648.000,1630.000
1649.000,1644.000,1636.000
1654.000,1626.000,1641.000
1641.000,1620.000,1604.000
1643.000,1639.000,1613.000
1637.000,1623.000,1619.000
1643.000,1636.000,1604.000
1633.000,1590.000,1627.000
1626.000,1626.000,1621.000
1608.000,1620.000,1627.000
1612.000,1609.000,1609.000
1619.000,1619.000,1611.000
1616.000,1614.000,1597.000
1628.000,1603.000,1610.000
1625.000,1598.000,1595.000
1594.000,1625.000,1597.000
1594.000,1606.000,1601.000
1587.000,1624.000,1586.000
1620.000,1609.000,1597.000
1603.000,1605.000,1583.000
1629.000,1599.000,1613.000
1601.000,1608.000,1585.000
1592.000,1607.000,1611.000
1598.000,1604.000,1603.000
1599.000,1621.000,1600.000
1619.000,1627.000,1620.000
1623.000,1622.000,1604.000
1608.000,1608.000,1616.000
1609.000,1588.000,1608.000
1611.000,1606.000,1625.000
1589.000,1591.000,1592.000
1606.000,1632.000,1603.000
1592.000,1583.000,1593.000
1583.000,1600.000,1589.000
1615.000,1582.000,1593.000
1595.000,1596.000,1595.000
1605.000,1582.000,1589.000
1601.000,1609.000,1608.000
1596.000,1578.000,1582.000
1600.000,1600.000,1574.000
1582.000,1582.000,1588.000
1572.000,1586.000,1583.000
1570.000,1570.000,1591.000
1594.000,1584.000,1579.000
1583.000,1584.000,1574.000
1590.000,1567.000,1565.000
1575.000,1593.000,1567.000
1552.000,1555.000,1565.000
1576.000,1558.000,1588.000
1574.000,1559.000,1548.000
1578.000,1554.000,1546.000
1574.000,1543.000,1551.000
1552.000,1563.000,1557.000
1542.000,1559.000,1557.000
1551.000,1563.000,1561.000
1553.000,1531.000,1535.000
1561.000,1560.000,1556.000
1544.000,1556.000,1529.000
1548.000,1555.000,1541.000
1541.000,1548.000,1552.000
1533.000,1538.000,1540.000
1554.000,1542.000,1544.000
1533.000,1527.000,1531.000
1533.000,1535.000,1535.000
1548.000,1545.000,1540.000
1555.000,1527.000,1545.000
1537.000,1520.000,1526.000
1528.000,1548.000,1536.000
1545.000,1548.000,1532.000
1536.000,1535.000,1540.000
1525.000,1525.000,1524.000
1542.000,1536.000,1535.000
1535.000,1555.000,1551.000
1537.000,1563.000,1527.000
1563.000,1541.000,1509.000
1529.000,1557.000,1547.000
1546.000,1518.000,1537.000
1534.000,1543.000,1534.000
1535.000,1532.000,1538.000
1522.000,1536.000,1528.000
1535.000,1540.000,1534.000
1532.000,1537.000,1525.000
1528.000,1519.000,1534.000
1534.000,1504.000,1541.000
1534.000,1515.000,1517.000
1540.000,1529.000,1514.000
1519.000,1534.000,1513.000
1512.000,1531.000,1517.000
1528.000,1525.000,1516.000
1517.000,1506.000,1511.000
1511.000,1503.000,1498.000
1515.000,1510.000,1511.000
1512.000,1501.000,1519.000
1514.000,1518.000,1488.000
1514.000,1502.000,1503.000
1498.000,1504.000,1487.000
1503.000,1500.000,1495.000
1499.000,1491.000,1483.000
1484.000,1488.000,1482.000
1485.000,1490.000,1486.000
1503.000,1469.000,1477.000
1507.000,1484.000,1480.000
1485.000,1481.000,1483.000
1469.000,1503.000,1487.000
1473.000,1494.000,1481.000
1466.000,1490.000,1470.000
1474.000,1479.000,1463.000
1472.000,1485.000,1485.000
1480.000,1474.000,1465.000
1482.000,1458.000,1474.000
1493.000,1486.000,1465.000
1461.000,1470.000,1470.000
1470.000,1490.000,1468.000
1470.000,1481.000,1473.000
1481.000,1473.000,1455.000
1451.000,1479.000,1459.000
1474.000,1472.000,1452.000
1490.000,1448.000,1466.000
1477.000,1469.000,1466.000
1470.000,1475.000,1478.000
1454.000,1469.000,1471.000
1482.000,1467.000,1459.000
1473.000,1456.000,1460.000
1470.000,1459.000,1468.000
1474.000,1449.000,1455.000
1475.000,1481.000,1473.000
1460.000,1467.000,1468.000
1465.000,1453.000,1463.000
1454.000,1468.000,1467.000
1450.000,1486.000,1466.000
1462.000,1472.000,1453.000
1471.000,1439.000,1459.000
1434.000,1432.000,1448.000
1463.000,1459.000,1455.000
1451.000,1441.000,1452.000
1467.000,1435.000,1431.000
1457.000,1434.000,1419.000
1447.000,1448.000,1459.000
1451.000,1438.000,1424.000
1457.000,1437.000,1435.000
1438.000,1431.000,1429.000
1446.000,1439.000,1443.000
1442.000,1447.000,1420.000
1429.000,1427.000,1415.000
1438.000,1426.000,1438.000
1453.000,1429.000,1429.000
1428.000,1429.000,1421.000
1425.000,1422.000,1428.000
1413.000,1405.000,1436.000
1405.000,1412.000,1406.000
1410.000,1407.000,1423.000
1420.000,1443.000,1416.000
1417.000,1410.000,1429.000
1425.000,1414.000,1415.000
1428.000,1401.000,1403.000
1407.000,1417.000,1402.000
1410.000,1410.000,1399.000
1408.000,1409.000,1405.000
1411.000,1410.000,1410.000
1403.000,1409.000,1423.000
1397.000,1402.000,1418.000
1402.000,1417.000,1399.000
1410.000,1398.000,1414.000
1391.000,1405.000,1401.000
1403.000,1418.000,1407.000
1408.000,1402.000,1412.000
1410.000,1395.000,1404.000
1402.000,1404.000,1412.000
1409.000,1383.000,1406.000
1392.000,1400.000,1403.000
1403.000,1412.000,1391.000
1408.000,1416.000,1393.000
1410.000,1402.000,1394.000
1395.000,1386.000,1407.000
1397.000,1413.000,1405.000
1398.000,1396.000,1399.000
1398.000,1390.000,1387.000
1390.000,1401.000,1384.000
1384.000,1380.000,1396.000
1388.000,1383.000,1394.000
1406.000,1381.000,1378.000
1403.000,1379.000,1393.000
1387.000,1388.000,1396.000
1379.000,1383.000,1384.000
1384.000,1380.000,1395.000
1390.000,1381.000,1369.000
1378.000,1375.000,1371.000
1384.000,1389.000,1379.000
1383.000,1381.000,1377.000
1362.000,1376.000,1370.000
1376.000,1375.000,1352.000
1365.000,1368.000,1373.000
